Folder: NiPyC_analogues/XRD

Note: README.md
https://pubs.acs.org/doi/full/10.1021/jacs.6b10455 xtal downloaded from here and the DMF solvent was deleted via cutting out lines of the .cif

File: NiPyC2-mNH2_sc222.int
GENERAL$
11900
  1.390000      0.01328      0.00000
  1.790000      0.00865      0.00000
  2.190000      0.00627      0.00000
  2.590000      0.00488      0.00000
  2.990000      0.00400      0.00000
  3.390000      0.00342      0.00000
  3.790000      0.00301      0.00000
  4.190000      0.00274      0.00000
  4.590000      0.00254      0.00000
  4.990000      0.00242      0.00000
  5.390000      0.00235      0.00000
  5.790000      0.00233      0.00000
  6.190000      0.00244      0.00000
  6.590000      0.00270      0.00000
  6.990000      0.01208      0.00000
  7.390000      0.00323      0.00000
  7.790000      0.00317      0.00000
  8.190000      0.00355      0.00000
  8.590000      0.00812      0.00000
  8.990000      0.00549      0.00000
  9.390000      0.00760      0.00000
  9.790000      0.01326      0.00000
 10.19      0.02284      0.00000
 10.59      0.05669      0.00000
 10.99      0.72638      0.00000
 11.39      0.23462      0.00000
 11.79      0.03274      0.00000
 12.19      0.01234      0.00000
 12.59      0.00685      0.00000
 12.99      0.00804      0.00000
 13.39      0.01187      0.00000
 13.79      0.00644      0.00000
 14.19      0.37686      0.00000
 14.59      0.00650      0.00000
 14.99      0.00889      0.00000
 15.39      0.02545      0.00000
 15.79      1.90757      0.00000
 16.19      0.05089      0.00000
 16.59      0.05800      0.00000
 16.99      0.02179      0.00000
 17.39      0.02520      0.00000
 17.79      0.09948      0.00000
 18.19      3.91192      0.00000
 18.59      0.02574      0.00000
 18.99      0.00514      0.00000
 19.39      0.00281      0.00000
 19.79      0.01550      0.00000
 20.19      0.01534      0.00000
 20.59      0.00394      0.00000
 20.99      0.00711      0.00000
 21.39      0.02414      0.00000
 21.79      2.85438      0.00000
 22.19      0.14524      0.00000
 22.59      0.09334      0.00000
 22.99      0.24327      0.00000
 23.39      0.11704      0.00000
 23.79      0.44648      0.00000
 24.19      0.02572      0.00000
 24.59      0.00199      0.00000
 24.99      0.00154      0.00000
 25.39      0.00225      0.00000
 25.79      0.00725      0.00000
 26.19      0.02421      0.00000
 26.59      0.03498      0.00000
 26.99      0.28657      0.00000
 27.39      0.01027      0.00000
 27.79      0.03164      0.00000
 28.19      0.03291      0.00000
 28.59      0.35920      0.00000
 28.99      0.00378      0.00000
 29.39      0.07321      0.00000
 29.79      0.02870      0.00000
 30.19      0.01399      0.00000
 30.59      0.17683      0.00000
 30.99      0.45173      0.00000
 31.39      0.10288      0.00000
 31.79      0.00752      0.00000
 32.19      0.00510      0.00000
 32.59      0.00244      0.00000
 32.99      0.01192      0.00000
 33.39      0.02294      0.00000
 33.79      0.58650      0.00000
 34.19      0.04162      0.00000
 34.59      0.01954      0.00000
 34.99      0.05091      0.00000
 35.39      0.02153      0.00000
 35.79      0.02348      0.00000
 36.19      0.05466      0.00000
 36.59      0.88791      0.00000
 36.99      0.19874      0.00000
 37.39      0.01908      0.00000
 37.79      0.08835      0.00000
 38.19      0.01949      0.00000
 38.59      0.00351      0.00000
 38.99      0.01063      0.00000
 39.39      0.00665      0.00000
 39.79      0.06098      0.00000
 40.19      0.03758      0.00000
 40.59      0.02046      0.00000
 40.99      0.09556      0.00000
 41.39      0.54293      0.00000
 41.79      0.22918      0.00000
 42.19      0.02942      0.00000
 42.59      0.10432      0.00000
 42.99      0.02797      0.00000
 43.39      0.02353      0.00000
 43.79      0.01731      0.00000
 44.19      0.22682      0.00000
 44.59      0.10857      0.00000
 44.99      0.10286      0.00000
 45.39      0.05400      0.00000
 45.79      0.22978      0.00000
 46.19      0.06035      0.00000
 46.59      0.18790      0.00000
 46.99      0.18289      0.00000
 47.39      0.23032      0.00000
 47.79      0.04946      0.00000
 48.19      0.01483      0.00000
 48.59      0.17884      0.00000
 48.99      0.03425      0.00000
 49.39      0.20617      0.00000
 49.79      0.03230      0.00000
 50.19      0.00575      0.00000
 50.59      0.01519      0.00000
 50.99      0.00860      0.00000
 51.39      0.03284      0.00000
 51.79      0.24036      0.00000
 52.19      0.01147      0.00000
 52.59      0.05234      0.00000
 52.99      0.13889      0.00000
 53.39      0.21775      0.00000
 53.79      0.11421      0.00000
 54.19      0.04701      0.00000
 54.59      0.06248      0.00000
 54.99      0.01290      0.00000
 55.39      0.02162      0.00000
 55.79      0.15743      0.00000
 56.19      0.03805      0.00000
 56.59      0.05531      0.00000
 56.99      0.01895      0.00000
 57.39      0.01814      0.00000
 57.79      0.00893      0.00000
 58.19      0.09053      0.00000
 58.59      0.07171      0.00000
 58.99      0.09943      0.00000
 59.39      0.04855      0.00000
 59.79      0.02764      0.00000
 60.19      0.16343      0.00000
 60.59      0.03871      0.00000
 60.99      0.05026      0.00000
 61.39      0.00952      0.00000
 61.79      0.07719      0.00000
 62.19      0.03311      0.00000
 62.59      0.03069      0.00000
 62.99      0.02931      0.00000
 63.39      0.01207      0.00000
 63.79      0.12661      0.00000
 64.19      0.04708      0.00000
 64.59      0.06021      0.00000
 64.99      0.04686      0.00000
 65.39      0.13276      0.00000
 65.79      0.04821      0.00000
 66.19      0.03614      0.00000
 66.59      0.04411      0.00000
 66.99      0.03660      0.00000
 67.39      0.02022      0.00000
 67.79      0.03123      0.00000
 68.19      0.02726      0.00000
 68.59      0.02057      0.00000
 68.99      0.02098      0.00000
 69.39      0.03785      0.00000
 69.79      0.05759      0.00000
 70.19      0.03964      0.00000
 70.59      0.02885      0.00000
 70.99      0.01834      0.00000
 71.39      0.03313      0.00000
 71.79      0.04522      0.00000
 72.19      0.04027      0.00000
 72.59      0.02212      0.00000
 72.99      0.01160      0.00000
 73.39      0.01374      0.00000
 73.79      0.02145      0.00000
 74.19      0.01171      0.00000
 74.59      0.01990      0.00000
 74.99      0.01385      0.00000
 75.39      0.02833      0.00000
 75.79      0.03834      0.00000
 76.19      0.06057      0.00000
 76.59      0.04151      0.00000
 76.99      0.02644      0.00000
 77.39      0.03563      0.00000
 77.79      0.02475      0.00000
 78.19      0.03584      0.00000
 78.59      0.05019      0.00000
 78.99      0.03441      0.00000
 79.39      0.02185      0.00000
 79.79      0.01104      0.00000
 80.19      0.01832      0.00000
 80.59      0.01549      0.00000
 80.99      0.02700      0.00000
 81.39      0.02240      0.00000
 81.79      0.02526      0.00000
 82.19      0.04010      0.00000
 82.59      0.03145      0.00000
 82.99      0.05070      0.00000
 83.39      0.03840      0.00000
 83.79      0.02605      0.00000
 84.19      0.02192      0.00000
 84.59      0.01769      0.00000
 84.99      0.01206      0.00000
 85.39      0.01826      0.00000
 85.79      0.03717      0.00000
 86.19      0.02430      0.00000
 86.59      0.02746      0.00000
 86.99      0.02964      0.00000
 87.39      0.01444      0.00000
 87.79      0.01984      0.00000
 88.19      0.02417      0.00000
 88.59      0.01304      0.00000
 88.99      0.01183      0.00000
 89.39      0.02194      0.00000
 89.79      0.01811      0.00000
 90.19      0.01169      0.00000
 90.59      0.00559      0.00000
 90.99      0.01869      0.00000
 91.39      0.03180      0.00000
 91.79      0.02465      0.00000
 92.19      0.02411      0.00000
 92.59      0.02390      0.00000
 92.99      0.02415      0.00000
 93.39      0.02229      0.00000
 93.79      0.01787      0.00000
 94.19      0.01322      0.00000
 94.59      0.01465      0.00000
 94.99      0.01520      0.00000
 95.39      0.01038      0.00000
 95.79      0.01148      0.00000
 96.19      0.01351      0.00000
 96.59      0.02096      0.00000
 96.99      0.02192      0.00000
 97.39      0.03683      0.00000
 97.79      0.02366      0.00000
 98.19      0.02114      0.00000
 98.59      0.01502      0.00000
 98.99      0.00821      0.00000
 99.39      0.02641      0.00000
 99.79      0.02309      0.00000
100.19      0.01593      0.00000
100.59      0.01397      0.00000
100.99      0.01383      0.00000
101.39      0.01748      0.00000
101.79      0.02083      0.00000
102.19      0.01995      0.00000
102.59      0.01837      0.00000
102.99      0.01656      0.00000
103.39      0.01240      0.00000
103.79      0.01630      0.00000
104.19      0.03322      0.00000
104.59      0.02410      0.00000
104.99      0.01806      0.00000
105.39      0.01177      0.00000
105.79      0.01537      0.00000
106.19      0.01921      0.00000
106.59      0.01523      0.00000
106.99      0.02715      0.00000
107.39      0.03303      0.00000
107.79      0.01925      0.00000
108.19      0.01551      0.00000
108.59      0.01125      0.00000
108.99      0.01681      0.00000
109.39      0.02100      0.00000
109.79      0.01699      0.00000
110.19      0.01834      0.00000
110.59      0.02244      0.00000
110.99      0.01797      0.00000
111.39      0.01877      0.00000
111.79      0.01768      0.00000
112.19      0.01859      0.00000
112.59      0.01659      0.00000
112.99      0.01412      0.00000
113.39      0.02165      0.00000
113.79      0.01901      0.00000
114.19      0.02165      0.00000
114.59      0.02055      0.00000
114.99      0.01238      0.00000
115.39      0.02159      0.00000
115.79      0.01955      0.00000
116.19      0.01303      0.00000
116.59      0.00748      0.00000
116.99      0.00804      0.00000
117.39      0.01281      0.00000
117.79      0.01463      0.00000
118.19      0.01480      0.00000
118.59      0.01960      0.00000
118.99      0.01337      0.00000
119.39      0.01492      0.00000
119.79      0.01910      0.00000
119.99      0.01977      0.00000