Folder: NiPyC_analogues/data/new_xptl_data/BET_isotherms

Note: data/new_xptl_data/BET_isotherms/README.md
These N2 isotherms (77 K) were taken on a second batch of Ni(PyC)2 and Ni(PyC-m-NH2)2 synthesized. Data recieved: March 2022.

File: NiPyC-NH2_BET.csv
# BET Surface Area: 475.6134 m²/g
Relative Pressure (p/p°),Quantity Adsorbed (cm³/g STP)
3.20196e-07,8.96767
1.08476e-06,17.9372
1.85778e-06,26.885
2.44736e-06,35.8256
3.51148e-06,44.7435
7.05379e-06,53.6352
1.77374e-05,62.4645
4.46227e-05,71.2767
0.000129736,79.9286
0.000214754,88.289
0.000402601,96.2774
0.000882441,103.524
0.00341173,107.999
0.00879173,108.768
0.0143646,109.237
0.0201122,109.449
0.0259361,109.596
0.0317049,109.73
0.0374696,109.851
0.0432025,109.966
0.0490076,110.055
0.0581132,110.15
0.0672735,110.247
0.0764025,110.334
0.0854859,110.415
0.0944453,110.495
0.103448,110.583
0.112558,110.661
0.121538,110.74
0.130453,110.823
0.139546,110.893
0.148592,110.958
0.251067,109.928
0.350565,108.84
0.450367,107.668
0.550475,106.474
0.649971,105.321
0.750205,104.288
0.884706,103.767
0.945587,105.063
0.987402,109.102
0.891575,106.489
0.789024,107.407
0.688751,109.027
0.588628,110.76
0.488861,112.393
0.396299,112.434
0.289693,113.905
0.189571,115.267
0.0998255,116.282

File: NiPyC_BET.csv
# BET Surface Area: 481.6125 m²/g
Relative Pressure (p/p°),Quantity Adsorbed (cm³/g STP)
3.55e-07,8.90443
1.05747e-06,17.8539
1.89733e-06,26.7794
2.81735e-06,35.7225
4.3201e-06,44.6745
8.31563e-06,53.6095
2.61682e-05,62.484
0.000139382,71.0595
0.00110655,78.3087
0.00296029,84.2587
0.00603739,88.5351
0.0107752,90.6596
0.0161153,91.9908
0.0215555,93.1269
0.0264322,94.9628
0.0298567,98.51
0.0339047,101.305
0.0373983,104.71
0.0423168,106.488
0.0472403,108.115
0.0525623,109.261
0.0615315,110.534
0.0705875,111.645
0.0800354,112.444
0.0894707,113.108
0.0988889,113.708
0.108351,114.243
0.118024,114.677
0.127658,115.111
0.137188,115.482
0.146859,115.826
0.249283,117.113
0.350583,117.659
0.449362,117.841
0.549536,117.908
0.649538,117.901
0.749647,117.807
0.885944,117.694
0.947662,118.06
0.988506,119.495
0.889934,119.165
0.789536,119.765
0.689468,120.343
0.58948,120.875
0.489595,121.275
0.396511,121.201
0.290178,121.024
0.190296,120.504
0.101191,118.916