Folder: NiPyC_analogues/data/experimental_isotherm_data

Note: data/experimental_isotherm_data/README.md
I had to produce the `.csv` files manually.

The `.jpg` file is the organic linker that was used in the de novo synthesis of the functionalized MOF according to the our collaborators.

File: NiMOF-2_Xe_298K.csv
p,P0,p/p0,Volume @ STP,cc/g,mmol/g,
21.5767,760,0.0283904,4.22777,25.0016,1.11614,14.6215
37.2387,760,0.0489983,6.08539,35.9869,1.60656,21.0459
52.6609,760,0.0692907,7.23046,42.7585,1.90886,25.0061
60.6529,760,0.0798064,7.70481,45.5636,2.03409,26.6466
76.1689,760,0.100222,8.36104,49.4444,2.20734,28.9161
114.151,760,0.150199,9.32888,55.1678,2.46285,32.2633
150.693,760,0.19828,9.8735,58.3885,2.60663,34.1469
190.837,760,0.251101,10.2823,60.806,2.71455,35.5607
227.969,760,0.299959,10.5566,62.4281,2.78697,36.5093
267.078,760,0.351418,10.7831,63.7676,2.84677,37.2927
305.764,760,0.402321,10.9816,64.9415,2.89917,37.9792
341.296,760,0.449074,11.117,65.7422,2.93492,38.4474
379.498,760,0.499339,11.2441,66.4938,2.96847,38.887
417.867,760,0.549825,11.3568,67.1603,2.99823,39.2768
456.118,760,0.600155,11.4584,67.7611,3.02505,39.6281
494.379,760,0.650499,11.5503,68.3046,3.04931,39.946
532.553,760,0.700728,11.635,68.8054,3.07167,40.2389
570.734,760,0.750966,11.7144,69.275,3.09263,40.5135
608.828,760,0.801089,11.7888,69.715,3.11228,40.7708
646.88,760,0.851158,11.8616,70.1455,3.13149,41.0226
685.059,760,0.901393,11.9296,70.5476,3.14945,41.2578
723.126,760,0.951482,11.993,70.9225,3.16618,41.477
757.524,760,0.996742,12.0489,71.2531,3.18094,41.6703
753.524,760,0.991479,12.0611,71.3253,3.18416,41.7125
720.179,760,0.947604,12.0374,71.1851,3.17791,41.6306
646.247,760,0.850325,11.9573,70.7114,3.15676,41.3535
570.614,760,0.750808,11.8616,70.1455,3.13149,41.0226
494.592,760,0.650779,11.7447,69.4542,3.10063,40.6183
418.91,760,0.551197,11.6011,68.605,3.06272,40.1217
343.404,760,0.451847,11.4163,67.5121,3.01393,39.4825
264.861,760,0.348501,11.1446,65.9054,2.9422,38.5429
190.788,760,0.251037,10.7405,63.5157,2.83552,37.1453
114.216,760,0.150284,9.90889,58.5978,2.61597,34.2693
75.7756,760,0.0997047,9.00825,53.2717,2.3782,31.1545
39.4684,760,0.0519321,7.19327,42.5386,1.89904,24.8775