Folder: NiPyC_analogues/data/experimental_isotherm_data/old_exptl_data

Note: data/experimental_isotherm_data/old_exptl_data/README.md
This data was last modified on Nov 5 2020. We obtained newer data on April 16 and will be using that data for the plots.
I had to produce the `.csv` files manually.

File: NH2_Xe.csv
p,p0,p/p0,cc,mmol/g,min,,
3.80422,760,0.00500555,0.32188,0.337316,144.3,3,2
6.09748,760,0.008023,0.553535,0.580079,242.6,3,2
7.58038,760,0.00997418,0.639252,0.669907,266,3,2
15.1904,760,0.0199874,1.04854,1.09882,323.6,3,2
29.5047,760,0.038822,1.30529,1.36788,331.6,3,2
45.9728,760,0.0604905,1.50942,1.5818,338.5,3,2
63.2033,760,0.0831622,1.62948,1.70762,343.2,3,2
79.5952,760,0.104731,1.70622,1.78804,346.6,3,2
98.4061,760,0.129482,1.771,1.85593,349.6,3,2
117.733,760,0.154912,1.82432,1.9118,352.4,3,2
137.009,760,0.180275,1.86924,1.95888,355.4,3,2
156.052,760,0.205332,1.90747,1.99894,358.1,3,2
193.597,760,0.254733,1.96556,2.05982,360.7,3,2
231.77,760,0.304961,2.01952,2.11636,363.3,3,2
269.929,760,0.35517,2.06954,2.16878,366.1,3,2
308.007,760,0.405272,2.11596,2.21743,368.8,3,2
346.08,760,0.455368,2.16065,2.26426,371.4,3,2
384.078,760,0.505366,2.20334,2.309,374,3,2
422.076,760,0.555363,2.2462,2.35392,376.8,3,2
460.158,760,0.605471,2.28693,2.3966,379.4,3,2
498.202,760,0.655529,2.32738,2.43899,382.1,3,2
536.109,760,0.705407,2.36795,2.4815,384.8,3,2
574.243,760,0.755583,2.40577,2.52114,387.5,3,2
612.261,760,0.805607,2.44511,2.56236,390.5,3,2
650.247,760,0.855588,2.48381,2.60292,393.5,3,2
688.166,760,0.905482,2.524,2.64504,396.6,3,2
726.049,760,0.955328,2.56245,2.68533,399.4,3,2
760.388,760,1.00051,2.59969,2.72436,402.2,3,2
751.501,760,0.988817,2.59659,2.72111,405.2,3,2
681.294,760,0.896439,2.54533,2.66739,409.3,3,2
605.705,760,0.79698,2.48209,2.60112,413.5,3,2
529.693,760,0.696964,2.41508,2.53089,417,3,2
453.829,760,0.597143,2.34303,2.45539,420.4,3,2
376.967,760,0.496009,2.2683,2.37707,424,3,2
301.28,760,0.396421,2.19055,2.2956,427.1,3,2
224.743,760,0.295714,2.10112,2.20188,432,3,2
148.983,760,0.19603,2.00084,2.09679,437.6,3,2
73.4299,760,0.0966183,1.86647,1.95598,443.7,3,2

File: Ni-PYC-NH2_Xe.csv
p,p0,p/p0,cc,mmol/g,min,,
36.4657,760,0.0479812,0.972248,1.01887,50.8,3,2
58.4174,760,0.076865,1.48257,1.55367,71.4,3,2
76.9275,760,0.10122,1.6758,1.75616,81,3,2
96.7659,760,0.127324,1.81127,1.89813,88.7,3,2
116.882,760,0.153792,1.89914,1.99021,94.3,3,2
136.399,760,0.179472,1.96535,2.0596,99,3,2
155.835,760,0.205046,2.01561,2.11227,102.9,3,2
193.555,760,0.254678,2.08004,2.17979,107,3,2
231.912,760,0.305147,2.12972,2.23185,110.5,3,2
270.164,760,0.355479,2.17071,2.27481,113.5,3,2
308.271,760,0.40562,2.20367,2.30935,116.3,3,2
346.495,760,0.455914,2.23073,2.3377,118.8,3,2
384.398,760,0.505787,2.25961,2.36797,121.9,3,2
422.669,760,0.556143,2.28057,2.38993,124.5,3,2
460.704,760,0.606189,2.30197,2.41236,127.2,3,2
498.739,760,0.656236,2.31996,2.43121,129.8,3,2
536.736,760,0.706232,2.34046,2.4527,133.3,3,2
574.726,760,0.756218,2.35902,2.47215,136.5,3,2
612.809,760,0.806328,2.37578,2.48971,139.8,3,2
650.894,760,0.856439,2.39057,2.50521,143.2,3,2
688.836,760,0.906363,2.40931,2.52485,146.5,3,2
726.938,760,0.956497,2.42336,2.53957,149.8,3,2
761.099,760,1.00145,2.43885,2.5558,153.2,3,2
751.357,760,0.988628,2.4484,2.56581,156.5,3,2
680.734,760,0.895703,2.45448,2.57218,163.3,3,2
604.737,760,0.795707,2.44953,2.567,169.8,3,2
529.028,760,0.696089,2.43727,2.55415,176.2,3,2
452.261,760,0.59508,2.42051,2.53658,182.5,3,2
376.597,760,0.495522,2.40224,2.51744,188.7,3,2
300.25,760,0.395066,2.37429,2.48815,195.6,3,2
223.918,760,0.294629,2.33864,2.45079,203,3,2
148.242,760,0.195055,2.28913,2.3989,210.9,3,2
72.7736,760,0.0957547,2.21589,2.32215,218.1,3,2

File: NiMOF2_Kr_298K.csv
p,P0,p/p0,Volume @ STP,cc/g,mmol/g
21.6242,760,0.0284529,1.21701,2.28246,0.101896
36.6543,760,0.0482293,2.04416,3.83376,0.17115
51.9726,760,0.068385,2.8587,5.3614,0.239348
74.9403,760,0.0986057,4.0318,7.56152,0.337568
112.534,760,0.148071,5.83461,10.9426,0.48851
151.408,760,0.199221,7.55504,14.1692,0.632555
189.891,760,0.249857,9.12976,17.1226,0.764401
228.341,760,0.300449,10.5891,19.8595,0.886586
265.071,760,0.348778,11.8816,22.2836,0.994802
303.253,760,0.399017,13.1333,24.6311,1.0996
342.136,760,0.450179,14.322,26.8605,1.19913
380.54,760,0.500711,15.4144,28.9092,1.29059
416.528,760,0.548063,16.3742,30.7093,1.37095
454.501,760,0.598028,17.3243,32.4912,1.4505
492.973,760,0.648649,18.2273,34.1847,1.5261
531.416,760,0.699232,19.0735,35.7718,1.59695
569.864,760,0.749821,19.8703,37.2661,1.66367
608.204,760,0.800268,20.6193,38.6709,1.72638
646.707,760,0.85093,21.3309,40.0054,1.78596
685.061,760,0.901396,22.0009,41.262,1.84205
723.307,760,0.95172,22.6341,42.4495,1.89507
755.664,760,0.994295,23.1449,43.4075,1.93784
754.005,760,0.992112,23.124,43.3683,1.93609
722.637,760,0.950838,22.636,42.4531,1.89523
644.856,760,0.848495,21.3115,39.9691,1.78433
569.376,760,0.749179,19.8806,37.2854,1.66453
494.233,760,0.650307,18.2803,34.2841,1.53054
417.318,760,0.549103,16.4238,30.8023,1.3751
342.014,760,0.450018,14.3549,26.9222,1.20188
267.201,760,0.35158,11.9997,22.5051,1.00469
190.61,760,0.250803,9.20777,17.2689,0.770932
114.117,760,0.150154,5.95379,11.1661,0.498489
75.9835,760,0.0999783,4.12614,7.73845,0.345466
38.2988,760,0.0503932,2.16907,4.06802,0.181608